thisRow.t,notes,block,Trialtype,withinblocktrial,RTdec,resp,cor,dots direction,cor_resp,coherence,scale,SR_conf,RTrating,interval,interTrial.interval,subject,age,gender,handedness,
,,0,Training - easy,0,1.1633403999985603,down,1,270,down,0.8,,,,,,0,22,M,R,
,,0,Training - easy,1,0.4477799000014784,up,1,90,up,0.8,,,,,,0,22,M,R,
,,0,Training - easy,2,0.3992048000000068,up,1,90,up,0.8,,,,,,0,22,M,R,
,,0,Training - easy,3,0.3493808999992325,up,0,270,down,0.8,,,,,,0,22,M,R,
,,0,Training - easy,4,0.6008093999989796,down,1,270,down,0.8,,,,,,0,22,M,R,
,,0,Training - easy,5,0.5689936000017042,down,0,90,up,0.8,,,,,,0,22,M,R,
,,0,Training - easy,6,0.532388899999205,up,1,90,up,0.8,,,,,,0,22,M,R,
,,0,Training - easy,7,0.5507462999994459,up,1,90,up,0.8,,,,,,0,22,M,R,
,,0,Training - easy,8,0.35089020000305027,up,1,90,up,0.8,,,,,,0,22,M,R,
,,0,Training - easy,9,0.45269940000071074,down,1,270,down,0.8,,,,,,0,22,M,R,
,,0,Training - easy,10,0.43379819999972824,up,1,90,up,0.8,,,,,,0,22,M,R,
,,0,Training - easy,11,0.53609890000007,down,1,270,down,0.8,,,,,,0,22,M,R,
,,0,Training - easy,12,0.4525553999992553,down,1,270,down,0.8,,,,,,0,22,M,R,
,,0,Training - easy,13,0.38404150000133086,down,1,270,down,0.8,,,,,,0,22,M,R,
,,0,Training - easy,14,0.7503638999987743,up,1,90,up,0.8,,,,,,0,22,M,R,
,,0,Training - easy,15,0.4519508000012138,up,1,90,up,0.8,,,,,,0,22,M,R,
,,0,Training - easy,16,0.3836611999977322,down,1,270,down,0.8,,,,,,0,22,M,R,
,,0,Training - easy,17,0.36599460000070394,up,1,90,up,0.8,,,,,,0,22,M,R,
,,0,Training - easy,18,0.33314859999882174,down,1,270,down,0.8,,,,,,0,22,M,R,
,,0,Training - easy,19,0.31660899999769754,down,1,270,down,0.8,,,,,,0,22,M,R,
,,0,Training - hard,0,0.6683929999999236,down,1,270,down,0.4,,,,,,0,22,M,R,
,,0,Training - hard,1,0.46679389999917476,up,1,90,up,0.4,,,,,,0,22,M,R,
,,0,Training - hard,2,0.5003051999992749,up,1,90,up,0.4,,,,,,0,22,M,R,
,,0,Training - hard,3,1.352356499999587,down,1,270,down,0.4,,,,,,0,22,M,R,
,,0,Training - hard,4,0.6332609999990382,up,0,270,down,0.4,,,,,,0,22,M,R,
,,0,Training - hard,5,0.9838525999984995,down,1,270,down,0.4,,,,,,0,22,M,R,
,,0,Training - hard,6,nan,[],0,270,down,0.4,,,,,,0,22,M,R,
,,0,Training - hard,7,0.9024223999986134,up,1,90,up,0.4,,,,,,0,22,M,R,
,,0,Training - hard,8,0.8013860000028217,down,1,270,down,0.4,,,,,,0,22,M,R,
,,0,Training - hard,9,0.5343929999980901,down,1,270,down,0.4,,,,,,0,22,M,R,
,,0,Training - hard,10,0.4023901999971713,up,1,90,up,0.4,,,,,,0,22,M,R,
,,0,Training - hard,11,0.4346719999994093,up,1,90,up,0.4,,,,,,0,22,M,R,
,,0,Training - hard,12,0.535235700001067,down,1,270,down,0.4,,,,,,0,22,M,R,
,,0,Training - hard,13,0.41793130000223755,up,1,90,up,0.4,,,,,,0,22,M,R,
,,0,Training - hard,14,0.35143429999880027,down,0,90,up,0.4,,,,,,0,22,M,R,
,,0,Training - hard,15,0.4688266000011936,up,1,90,up,0.4,,,,,,0,22,M,R,
,,0,Training - hard,16,0.4184468999992532,down,1,270,down,0.4,,,,,,0,22,M,R,
,,0,Training - hard,17,0.36637490000066464,up,1,90,up,0.4,,,,,,0,22,M,R,
,,0,Training - hard,18,0.3669091000010667,up,1,90,up,0.4,,,,,,0,22,M,R,
,,0,Training - hard,19,0.34990790000301786,down,1,270,down,0.4,,,,,,0,22,M,R,
,,1,Training - scales,0,0.6889751000016986,down,1,270,down,0.6,control,0.8600000000000001,2.1182829000026686,,,0,22,M,R,
,,1,Training - scales,1,0.5510647999981302,down,1,270,down,0.8,control,0.9199999999999999,0.952942100000655,,,0,22,M,R,
,,1,Training - scales,2,0.7680708000007144,up,0,270,down,0.1,conf,0.020000000000000018,1.6202253000010387,,,0,22,M,R,
,,1,Training - scales,3,0.5009860999998637,up,1,90,up,0.9,control,-0.94,1.8529682999978832,,,0,22,M,R,
,,1,Training - scales,4,0.5342178999999305,up,1,90,up,1.0,control,0.96,0.9014081999994232,,,0,22,M,R,
,,1,Training - scales,5,0.5160930000020016,up,1,90,up,0.2,control,0.6000000000000001,1.1177162999993016,,,0,22,M,R,
,,1,Training - scales,6,0.5498976000017137,down,1,270,down,0.7000000000000001,conf,0.94,1.0364657999998599,,,0,22,M,R,
,,1,Training - scales,7,0.6008944999994128,down,1,270,down,0.5,conf,0.96,2.0866395000011835,,,0,22,M,R,
,,1,Training - scales,8,0.5008251999970526,up,1,90,up,0.4,conf,0.96,1.3846682000003057,,,0,22,M,R,
,,1,Training - scales,9,0.5177929999990738,up,1,90,up,0.30000000000000004,conf,0.8600000000000001,1.4358243000024231,,,0,22,M,R,
,,2,Main,0,0.7108224000003247,down,1,270,down,0.5353061224489796,conf,0.48,1.6136762999994971,2.557047674278899,2.393517106555316,0,22,M,R,
,,2,Main,1,0.7609408000025724,up,1,90,up,0.45448979591836736,control,None,None,1.801626431614972,1.8821983248572138,0,22,M,R,
,,2,Main,2,0.6498978000017814,down,1,270,down,0.39387755102040817,conf,0.6200000000000001,1.6853330999983882,4.458473175245593,3.6604066109831477,0,22,M,R,
,,2,Main,3,0.662690900000598,down,1,270,down,0.333265306122449,conf,0.1200000000000001,1.4722148000000743,4.620021241040956,1.7810608631148892,0,22,M,R,
,,2,Main,4,0.6886290000002191,up,1,90,up,0.2726530612244898,conf,0.24,1.0469045000027108,2.1845235983653657,2.6312319743840105,0,22,M,R,
,,2,Main,5,0.9059049999996205,up,0,270,down,0.2524489795918367,conf,0.06000000000000005,2.5028203999972902,4.347512696492512,2.5249652346915994,0,22,M,R,
,,2,Main,6,0.8447166000005382,down,1,270,down,0.4140816326530612,conf,0.3600000000000001,1.2232198999990942,3.3978977271855912,2.058288888894102,0,22,M,R,
,,2,Main,7,0.8134801000014704,down,1,270,down,0.39387755102040817,conf,0.3400000000000001,1.4626170999981696,1.7268878992598364,1.5314640534869564,0,22,M,R,
,,2,Main,8,0.7026905000020633,up,1,90,up,0.35346938775510206,conf,0.6799999999999999,1.3242368999999599,4.190862460260028,1.970460810863698,0,22,M,R,
,,2,Main,9,0.7329713000035554,up,1,90,up,0.3130612244897959,control,0.8400000000000001,1.0238086999997904,3.4048947542235117,3.458414085623954,0,22,M,R,
,,2,Main,10,0.8588189000001876,up,0,270,down,0.2726530612244898,conf,0.3600000000000001,2.18081119999988,3.35558829931539,1.3193654228074805,0,22,M,R,
,,2,Main,11,0.7318997000002128,down,1,270,down,0.39387755102040817,conf,0.24,0.9131118999976024,1.6774100364534281,2.0642960560879486,0,22,M,R,
,,2,Main,12,0.6393166000016208,up,1,90,up,0.3736734693877551,conf,0.56,1.13810039999953,3.4607796577869347,1.4646649717466862,0,22,M,R,
,,2,Main,13,0.771378100002039,down,1,270,down,0.35346938775510206,conf,0.56,1.3991071000018565,2.4522113201410987,2.599622624861839,0,22,M,R,
,,2,Main,14,0.6540382999992289,up,1,90,up,0.333265306122449,control,0.6799999999999999,1.0504976999982318,3.549418543461495,3.920225957235911,0,22,M,R,
,,2,Main,15,0.801516300001822,down,1,270,down,0.3130612244897959,control,0.24,1.8426727000005485,4.155778352454195,3.4551933430430104,0,22,M,R,
,,2,Main,16,0.7468399999997928,down,1,270,down,0.2726530612244898,conf,0.08000000000000007,1.052044100000785,1.8366864499688853,3.3213482997390895,0,22,M,R,
,,2,Main,17,0.7324202999989211,down,1,270,down,0.23224489795918368,control,-0.12,1.1397092000006523,2.169424455005678,2.8977965684634164,0,22,M,R,
,,2,Main,18,0.689310599998862,up,1,90,up,0.2120408163265306,conf,0.24,0.8171373999975913,3.382451981631651,3.2901940619189105,0,22,M,R,
,,2,Main,19,0.8800164999993285,up,0,270,down,0.19183673469387755,conf,-0.16000000000000003,1.0258059999978286,3.9495157568615937,2.622809610995948,0,22,M,R,
,,2,Main,20,0.9974426999979187,up,0,270,down,0.3130612244897959,conf,-0.21999999999999997,0.9937232000011136,2.8311109422284217,1.2015256993940557,0,22,M,R,
,,2,Main,21,0.6176398000025074,up,1,90,up,0.3736734693877551,conf,0.74,1.2285044999989623,3.735289227137359,3.264707502994309,0,22,M,R,
,,2,Main,22,0.5890935999996145,up,1,90,up,0.35346938775510206,control,0.6200000000000001,0.9599653000004764,4.541186236489013,3.0852432145205775,0,22,M,R,
,,2,Main,23,0.5497762000013608,up,1,90,up,0.35346938775510206,conf,0.8200000000000001,0.9140858999999182,4.863070394927748,1.9914502157932068,0,22,M,R,
,,2,Main,24,0.6602493999998842,up,1,90,up,0.333265306122449,conf,0.8,0.9817545999976574,3.4413694771331427,2.8850969717785295,0,22,M,R,
,,2,Main,25,0.7014826000013272,up,1,90,up,0.29285714285714287,control,0.5800000000000001,1.4033367000010912,4.778760106768528,3.301555041085841,0,22,M,R,
,,2,Main,26,0.8328175999995437,down,1,270,down,0.2524489795918367,conf,0.19999999999999996,1.292988900000637,3.78263298982512,2.5306645757445048,0,22,M,R,
,,2,Main,27,0.6395193999996991,up,1,90,up,0.23224489795918368,conf,0.19999999999999996,1.021985899998981,3.012127722117804,2.0689966509882596,0,22,M,R,
,,2,Main,28,0.9838834000001953,up,0,270,down,0.2120408163265306,conf,0.040000000000000036,1.1985252000013134,2.3799023399111245,2.3828063958990726,0,22,M,R,
,,2,Main,29,0.6375545000009879,up,0,270,down,0.3130612244897959,conf,0.30000000000000004,1.4151404000003822,3.0508923434935262,3.705322677049317,0,22,M,R,
,,2,Main,30,0.7683130000004894,up,0,270,down,0.3736734693877551,conf,-0.14,0.8830153999988397,3.9793278591957733,3.2088380362657114,0,22,M,R,
,,2,Main,31,0.6780547999987903,up,1,90,up,0.4140816326530612,conf,0.3799999999999999,1.2221829000009166,4.736756094594757,1.9404696972021833,0,22,M,R,
,,2,Main,32,0.6449021000007633,up,0,270,down,0.39387755102040817,conf,-0.4,1.7827801000021282,4.226595331605456,2.9837933329200217,0,22,M,R,
,,2,Main,33,0.7366650000003574,up,1,90,up,0.45448979591836736,control,0.5800000000000001,1.520120200002566,3.927722575554795,3.2352239047478166,0,22,M,R,
,,2,Main,34,0.685616899998422,up,1,90,up,0.4342857142857143,conf,0.72,1.1459625999996206,3.2337467598534464,1.9014158181669967,0,22,M,R,
,,2,Main,35,0.6012234999980137,up,1,90,up,0.4342857142857143,control,0.45999999999999996,1.5667283000002499,4.664101312464965,2.6781594425440325,0,22,M,R,
,,2,Main,36,0.9085876000026474,up,1,90,up,0.4140816326530612,conf,None,None,3.772128336971852,2.871697052026596,0,22,M,R,
,,2,Main,37,0.659519699998782,up,1,90,up,0.4140816326530612,conf,0.94,1.1386606999985815,3.833838467523888,2.309494994319513,0,22,M,R,
,,2,Main,38,0.5782873999996809,up,1,90,up,0.35346938775510206,conf,0.96,1.594624000001204,1.8779889000243268,3.0638517569295267,0,22,M,R,
,,2,Main,39,0.6736936000015703,down,1,270,down,0.333265306122449,conf,0.56,1.0228895999971428,3.229751683037562,2.7366458195885723,0,22,M,R,
,,2,Main,40,0.7663665000000037,down,1,270,down,0.3130612244897959,control,0.48,0.8412105999996129,3.987464662106838,1.4162340527476622,0,22,M,R,
,,2,Main,41,0.8690883000017493,up,1,90,up,0.3130612244897959,conf,0.41999999999999993,0.9558404999988852,2.1734594256143573,1.6540669022299697,0,22,M,R,
,,2,Main,42,1.0985774000000674,down,1,270,down,0.29285714285714287,conf,0.0,0.37298350000128266,2.4700089194879915,2.842440386079747,0,22,M,R,
,,2,Main,43,0.6440581000024395,up,1,90,up,0.29285714285714287,conf,0.30000000000000004,1.013186100000894,4.126880116767696,1.2472257773067525,0,22,M,R,
,,2,Main,44,0.603850200001034,up,1,90,up,0.2726530612244898,conf,0.6000000000000001,1.1659913000003144,2.980809236226538,2.928832439072851,0,22,M,R,
,,2,Main,45,0.924705500001437,down,1,270,down,0.2524489795918367,conf,0.32000000000000006,1.3708757999993395,2.697568826063912,2.6549250506373774,0,22,M,R,
,,3,Main,0,0.9108898999984376,down,0,90,up,0.1716326530612245,conf,-0.19999999999999996,0.7886464999974123,3.3351283760587243,2.4813312370520655,0,22,M,R,
,,3,Main,1,1.3721755999977177,up,0,270,down,0.29285714285714287,conf,0.0,0.37700219999896945,3.639831485631711,1.4726395974332085,0,22,M,R,
,,3,Main,2,0.8293649999977788,down,1,270,down,0.39387755102040817,conf,0.7,1.7693006000008609,4.842576528105063,2.255344083931702,0,22,M,R,
,,3,Main,3,0.6780495999992127,down,1,270,down,0.333265306122449,conf,0.10000000000000009,0.8188627999988967,1.8183826829470326,2.558563608932191,0,22,M,R,
,,3,Main,4,0.8120952999997826,up,1,90,up,0.333265306122449,conf,0.54,0.6331881999976758,4.04268042279983,1.0203914693239615,0,22,M,R,
,,3,Main,5,0.7313622000001487,up,1,90,up,0.29285714285714287,conf,0.6599999999999999,0.8256493000008049,4.75050902694504,2.0730111923598105,0,22,M,R,
,,3,Main,6,0.6652261999988696,up,1,90,up,0.2726530612244898,conf,0.56,1.0012353000020084,2.9389499431315578,2.17386776247844,0,22,M,R,
,,3,Main,7,1.0123171999985061,down,1,270,down,0.333265306122449,control,0.17999999999999994,1.2474123000029067,4.659238102869011,3.5862396150744287,0,22,M,R,
,,3,Main,8,0.7014698999992106,up,1,90,up,0.19183673469387755,control,0.19999999999999996,1.251784600000974,2.0761818452969094,3.5235922001124553,0,22,M,R,
,,3,Main,9,0.664128399999754,down,1,270,down,0.3130612244897959,conf,0.1399999999999999,0.866571099999419,3.6951164348456222,3.33648723603053,0,22,M,R,
,,3,Main,10,1.2675564999990456,up,0,270,down,0.1716326530612245,conf,0.0,0.7483042999992904,4.232083603460754,2.7445310552888746,0,22,M,R,
,,3,Main,11,0.9924879000027431,up,1,90,up,0.23224489795918368,conf,0.1200000000000001,0.8626814000017475,4.393415717427291,2.9424788774593784,0,22,M,R,
,,3,Main,12,0.8776440000001458,up,1,90,up,0.333265306122449,conf,0.3600000000000001,2.1149045000020124,4.97719125676924,3.5019139113066755,0,22,M,R,
,,3,Main,13,0.7491977999998198,up,0,270,down,0.2726530612244898,control,0.0,1.0860181999996712,2.4753386435127407,3.486338176773258,0,22,M,R,
,,3,Main,14,0.7173168000008445,up,0,270,down,0.333265306122449,conf,0.0,0.8118631999968784,3.9511660794299788,1.997985303905167,0,22,M,R,
,,3,Main,15,0.6556775999997626,up,1,90,up,0.3736734693877551,conf,0.3600000000000001,1.7138636999989103,2.2033432438352585,1.6088899192965154,0,22,M,R,
,,3,Main,16,0.8733887999987928,up,0,270,down,0.29285714285714287,control,0.17999999999999994,0.9191016000004311,3.9822306134645995,1.9184009721504247,0,22,M,R,
,,3,Main,17,0.6509447999997064,up,1,90,up,0.4342857142857143,control,0.41999999999999993,1.0584357000007003,4.453413349897181,2.223333083640417,0,22,M,R,
,,3,Main,18,0.8958151000006183,up,1,90,up,0.4746938775510204,conf,0.7,1.9137300000002142,2.35909900310411,2.6617024894462746,0,22,M,R,
,,3,Main,19,0.6420152000027883,down,1,270,down,0.3736734693877551,conf,0.48,1.0263791000033962,2.877091874480735,1.7543901949290628,0,22,M,R,
,,3,Main,20,0.7803372999987914,down,1,270,down,0.4746938775510204,conf,0.41999999999999993,1.2346139999972365,2.238008223588631,1.3808587708612534,0,22,M,R,
,,3,Main,21,0.9213950000012119,down,1,270,down,0.39387755102040817,conf,0.3600000000000001,2.1109333999993396,2.871555980166512,1.4710631378713481,0,22,M,R,
,,3,Main,22,0.6636696999994456,up,1,90,up,0.45448979591836736,conf,0.5800000000000001,0.9119326000000001,4.031043126908325,3.5350958731210804,0,22,M,R,
,,3,Main,23,0.9687166999974579,up,1,90,up,0.45448979591836736,conf,0.6200000000000001,1.0837003999986337,2.910773662380045,3.2851817679156596,0,22,M,R,
,,3,Main,24,0.6201430000000983,down,1,270,down,0.35346938775510206,conf,0.5,1.2293505999987246,1.9013210907500184,3.204500750538868,0,22,M,R,
,,3,Main,25,0.6503529000001436,up,1,90,up,0.35346938775510206,control,0.32000000000000006,1.0203667000023415,3.908649119906397,2.321075296646217,0,22,M,R,
,,3,Main,26,0.7012207999978273,up,1,90,up,0.39387755102040817,conf,0.43999999999999995,1.3946656999978586,3.302884421346942,2.603218753724619,0,22,M,R,
,,3,Main,27,0.6486661000017193,up,1,90,up,0.39387755102040817,conf,0.5800000000000001,1.41821279999931,4.042821837705953,1.3236967837475695,0,22,M,R,
,,3,Main,28,0.7295070999971358,down,1,270,down,0.3130612244897959,conf,0.32000000000000006,1.3361927999976615,2.15515505875974,3.1712606506914103,0,22,M,R,
,,3,Main,29,0.849343099998805,down,1,270,down,0.2524489795918367,conf,0.0,0.38802250000298955,3.2553177231807973,2.352675313194462,0,22,M,R,
,,3,Main,30,0.8982350000005681,down,1,270,down,0.23224489795918368,conf,-0.14,0.9187644000012369,4.62481533056088,2.1810566130985887,0,22,M,R,
,,3,Main,31,1.4209172000009858,up,1,90,up,0.29285714285714287,conf,0.1200000000000001,1.1344795000004524,3.1465525743238563,3.632045810333156,0,22,M,R,
,,3,Main,32,0.655163999999786,up,1,90,up,0.29285714285714287,control,-0.7,2.0460915000003297,4.188596615750814,2.674317681999951,0,22,M,R,
,,3,Main,33,0.7982305000004999,down,1,270,down,0.2524489795918367,conf,-0.18000000000000005,1.668722100002924,4.39248504727966,3.4884451670654224,0,22,M,R,
,,3,Main,34,0.6319692999968538,up,1,90,up,0.29285714285714287,conf,0.6399999999999999,1.0066277000005357,4.7211988891059455,3.067136232447857,0,22,M,R,
,,3,Main,35,0.6216075000011188,up,1,90,up,0.29285714285714287,conf,0.8999999999999999,1.3926337999982934,1.6217759799317384,2.460352546071629,0,22,M,R,
,,3,Main,36,0.6285408000003372,down,1,270,down,0.2726530612244898,conf,0.3999999999999999,1.2304338999965694,3.743370048362505,1.2124502608418868,0,22,M,R,
,,3,Main,37,0.7898922999993374,down,1,270,down,0.2120408163265306,conf,0.17999999999999994,1.0316579999998794,1.6844414845845936,1.9928666491115168,0,22,M,R,
,,3,Main,38,0.8929722000029869,up,1,90,up,0.23224489795918368,conf,0.3999999999999999,1.2942425000001094,3.759269273643174,3.9542747314716293,0,22,M,R,
,,3,Main,39,0.5821603999975196,up,1,90,up,0.2726530612244898,conf,0.8200000000000001,0.855019300001004,3.3060398042742745,2.8911273432821054,0,22,M,R,
,,3,Main,40,0.6804257000003417,down,1,270,down,0.2524489795918367,conf,0.19999999999999996,1.2907677000002877,4.03340564310983,2.774786922094589,0,22,M,R,
,,3,Main,41,0.9959267999984149,down,0,90,up,0.2120408163265306,conf,0.0,0.35927499999888823,3.1651461954451117,2.2860253533882435,0,22,M,R,
,,3,Main,42,0.6664911000007123,down,1,270,down,0.1716326530612245,conf,0.15999999999999992,0.9854107999999542,4.311251290307821,2.6253324167096554,0,22,M,R,
,,3,Main,43,1.1957409999995434,up,1,90,up,0.2524489795918367,control,0.10000000000000009,2.7193125000012515,2.8370758988843674,2.0037073222583652,0,22,M,R,
,,3,Main,44,0.817144399999961,down,1,270,down,0.19183673469387755,control,0.0,0.9750983999983873,1.6676661612747348,2.0609575959336337,0,22,M,R,
,,3,Main,45,0.7928776000007929,down,1,270,down,0.13122448979591836,control,0.06000000000000005,1.1066304999985732,4.131137712601131,2.377718326982881,0,22,M,R,
,,4,Main,0,0.8591220999987854,down,1,270,down,0.09081632653061224,conf,-0.16000000000000003,1.0745986000001722,4.396832543789632,2.7990774079513945,0,22,M,R,
,,4,Main,1,0.8210202999980538,up,1,90,up,0.05040816326530612,conf,0.0,0.47040449999985867,3.7441890208446904,2.9252835399582464,0,22,M,R,
,,4,Main,2,0.8117228000010073,down,1,270,down,0.19183673469387755,conf,0.0,0.9543899000018428,2.234715484415163,1.0789438472357897,0,22,M,R,
,,4,Main,3,0.6893127000003005,up,1,90,up,0.2120408163265306,control,0.1200000000000001,0.7830156999989413,1.6667710467656955,2.7800112902139826,0,22,M,R,
,,4,Main,4,0.606337799999892,down,1,270,down,0.1716326530612245,conf,0.19999999999999996,1.0929563000026974,4.775742116001924,1.9752989105631107,0,22,M,R,
,,4,Main,5,0.6606136999980663,down,1,270,down,1.0,conf,0.96,0.8229357999989588,3.701095762543052,2.5187627673371487,0,22,M,R,
,,4,Main,6,0.9605704999994487,up,1,90,up,0.09081632653061224,conf,0.1200000000000001,0.7472806000005221,4.426682520643937,2.18261893021065,0,22,M,R,
,,4,Main,7,0.6685861999976623,up,1,90,up,0.9595918367346938,conf,0.96,1.0326795999972092,4.764653000196249,2.735617048383359,0,22,M,R,
,,4,Main,8,0.6004291999997804,down,1,270,down,0.9797959183673469,conf,0.9199999999999999,1.2526268000001437,3.7615433427699028,3.4105024629161735,0,22,M,R,
,,4,Main,9,0.7787003000012191,up,1,90,up,0.01,conf,-0.040000000000000036,0.6929056000008131,2.6633570209576805,3.4547360977521593,0,22,M,R,
,,4,Main,10,0.8317697999991651,down,1,270,down,0.9797959183673469,conf,0.8799999999999999,1.0066144000011263,2.051617824973678,1.3052459784406012,0,22,M,R,
,,4,Main,11,0.7977581999984977,up,1,90,up,0.19183673469387755,conf,0.0,0.3858788999968965,4.004658637455081,2.531860259198097,0,22,M,R,
,,4,Main,12,0.9702559999968798,up,1,90,up,0.2120408163265306,conf,0.45999999999999996,0.7775145999985398,4.302515806776848,3.044446613015013,0,22,M,R,
,,4,Main,13,1.2936102999992727,down,1,270,down,0.13122448979591836,conf,0.0,0.3311040000007779,4.374119197265762,2.8314489632886564,0,22,M,R,
,,4,Main,14,0.724308300003031,up,0,270,down,0.07061224489795918,conf,0.1399999999999999,1.704987400000391,2.6312301173004813,1.8577922399790356,0,22,M,R,
,,4,Main,15,0.7769079000026977,up,0,270,down,0.19183673469387755,conf,0.0,1.3148170999993454,1.6035821908315242,3.4013664081651367,0,22,M,R,
,,4,Main,16,1.1029465000028722,down,1,270,down,0.01,conf,-0.12,1.1610196000001451,4.488189496217775,2.1495058287851707,0,22,M,R,
,,4,Main,17,0.8943342000020493,up,1,90,up,1.0,control,0.96,1.2684310999975423,4.755651966705873,3.3510473178657882,0,22,M,R,
,,4,Main,18,0.6358387000000221,up,1,90,up,0.11102040816326529,conf,0.8600000000000001,1.0903496999999334,4.855663000088896,3.8428390127885725,0,22,M,R,
,,4,Main,19,0.678675099999964,down,1,270,down,0.9797959183673469,conf,0.94,1.1622284000004584,4.079890204014031,1.5631658252376814,0,22,M,R,
,,4,Main,20,0.6206928999999946,up,1,90,up,0.9393877551020408,conf,0.96,0.7622873000000254,3.2705673619050613,1.687986525546723,0,22,M,R,
,,4,Main,21,1.1992116999972495,down,1,270,down,0.15142857142857144,conf,0.1399999999999999,0.645377600001666,3.8819485088132417,2.563306565073435,0,22,M,R,
,,4,Main,22,0.7071715999991284,up,1,90,up,0.13122448979591836,control,-0.92,2.120739699999831,3.6655301293316525,1.9846137181319432,0,22,M,R,
,,4,Main,23,0.6342786999994132,down,1,270,down,0.9595918367346938,conf,0.8999999999999999,2.949211999999534,3.314033071160349,1.9019924500411913,0,22,M,R,
,,4,Main,24,0.9017229999990377,up,1,90,up,0.05040816326530612,conf,0.0,0.37570839999898453,2.1024523783736493,3.0069563227305722,0,22,M,R,
,,4,Main,25,0.627161199998227,up,1,90,up,1.0,conf,0.96,1.0304409000018495,4.692758812157155,3.3917361362138525,0,22,M,R,
,,4,Main,26,0.7290477999995346,down,1,270,down,0.9595918367346938,conf,0.94,1.1632591000015964,2.2264893304585653,1.5252534814879934,0,22,M,R,
,,4,Main,27,0.6431273999987752,up,1,90,up,1.0,control,0.94,0.9097450000008394,2.9761881173444014,1.2382817314918824,0,22,M,R,
,,4,Main,28,1.232485500000621,up,0,270,down,0.15142857142857144,conf,-0.18000000000000005,0.9590524000013829,3.218638889626135,1.4966420636569122,0,22,M,R,
,,4,Main,29,0.8701884000001883,up,1,90,up,0.07061224489795918,control,0.19999999999999996,0.8518409999996948,3.6615994956522417,1.6793523140931004,0,22,M,R,
,,4,Main,30,1.3068875999997545,down,1,270,down,0.01,control,-0.19999999999999996,0.8898349000010057,2.609699023549262,2.377242979460883,0,22,M,R,
,,4,Main,31,0.9598600000026636,down,0,90,up,0.05040816326530612,conf,0.0,0.30188949999865144,4.636862055132569,3.861349461798624,0,22,M,R,
,,4,Main,32,1.4064576999990095,down,1,270,down,0.030204081632653063,control,0.06000000000000005,1.427699299998494,2.1553990496639153,1.2625416905303577,0,22,M,R,
,,4,Main,33,0.6688159000004816,up,1,90,up,0.9393877551020408,conf,0.8799999999999999,1.0288834999992105,3.119641751639116,3.2716423979426983,0,22,M,R,
,,4,Main,34,0.7826163999998244,up,1,90,up,0.1716326530612245,control,0.15999999999999992,0.8977014000010968,4.42974313959429,3.545248078752266,0,22,M,R,
,,4,Main,35,0.8573542000012822,up,1,90,up,0.01,conf,0.15999999999999992,0.7851929999997083,4.2654934558325115,1.3398070500766228,0,22,M,R,
,,4,Main,36,0.6448774000018602,down,1,270,down,0.9191836734693878,conf,0.9199999999999999,1.0139275000001362,3.810161840842754,1.1097856230808023,0,22,M,R,
,,4,Main,37,0.6241570000020147,down,1,270,down,1.0,conf,0.9199999999999999,0.9681119000015315,4.650431334387362,1.7314973243099017,0,22,M,R,
,,4,Main,38,0.6300477000004321,up,1,90,up,0.9595918367346938,conf,0.9199999999999999,1.2322550999997475,1.9425851788233222,1.4895831486661109,0,22,M,R,
,,4,Main,39,0.8962501999994856,down,1,270,down,0.15142857142857144,conf,0.48,0.84391549999782,3.581484602794209,3.2113626436599727,0,22,M,R,
,,4,Main,40,0.6263896000018576,down,1,270,down,0.9797959183673469,conf,0.7,1.3071237999974983,1.8637437088910807,2.039661993565015,0,22,M,R,
,,4,Main,41,1.0483129999993253,down,0,90,up,0.01,control,0.1200000000000001,1.044782099997974,3.6323022352701186,2.4335774698239816,0,22,M,R,
,,4,Main,42,0.7548421999999846,up,1,90,up,0.13122448979591836,conf,0.26,0.9306233000024804,1.7011513774468408,2.1658865639947957,0,22,M,R,
,,4,Main,43,1.08838409999953,up,1,90,up,0.13122448979591836,conf,0.1200000000000001,0.9675052999991749,1.6130192508748713,2.446651184366821,0,22,M,R,
,,4,Main,44,0.6736496999983501,down,1,270,down,0.8787755102040816,control,0.8999999999999999,0.7432038999977522,1.7085831902715247,1.5482254807543412,0,22,M,R,
,,4,Main,45,0.6534930000016175,down,1,270,down,0.9595918367346938,conf,1.0,0.9310521999977937,3.116413485883607,2.0888471683151897,0,22,M,R,
,,5,Main,0,0.7083674000023166,up,1,90,up,0.030204081632653063,conf,0.0,0.5168551999995543,4.169130739368555,1.630194988128359,0,22,M,R,
,,5,Main,1,1.0101613999977417,up,1,90,up,0.13122448979591836,conf,0.1399999999999999,0.7245137000027171,4.731505140442172,3.8735026867468916,0,22,M,R,
,,5,Main,2,0.713738899998134,down,1,270,down,0.9797959183673469,conf,-0.94,2.5803233000006003,4.428094054122254,3.4138292677105255,0,22,M,R,
,,5,Main,3,0.7075154999984079,up,1,90,up,0.9797959183673469,conf,0.8799999999999999,1.05979600000137,4.942500314409527,2.5652648349383926,0,22,M,R,
,,5,Main,4,0.7057386000014958,up,1,90,up,0.7171428571428571,conf,1.0,0.8659424999968905,2.483073868051971,2.8729436919631253,0,22,M,R,
,,5,Main,5,0.664739499999996,down,1,270,down,1.0,conf,0.9199999999999999,2.0642827000010584,4.212907323909923,1.786741544710321,0,22,M,R,
,,5,Main,6,0.863454799997271,down,1,270,down,0.09081632653061224,conf,0.8799999999999999,1.0082546000012371,4.434970065955911,2.6416215882963003,0,22,M,R,
,,5,Main,7,0.6232320000017353,up,1,90,up,1.0,conf,0.9199999999999999,1.4099467000014556,4.592625663787667,1.9284613925678515,0,22,M,R,
,,5,Main,8,0.8743460000005143,down,1,270,down,0.9797959183673469,conf,0.9199999999999999,1.1543750999990152,2.413775290260283,3.2997940426992187,0,22,M,R,
,,5,Main,9,0.6048988000002282,down,1,270,down,0.9797959183673469,conf,0.94,1.3707071999997424,2.8451765393748127,2.0268394615072336,0,22,M,R,
,,5,Main,10,1.1094247000000905,up,1,90,up,0.8181632653061224,conf,0.94,1.2924509000004036,4.944838111520192,1.9859939326730216,0,22,M,R,
,,5,Main,11,1.4522827000000689,down,0,90,up,0.13122448979591836,conf,0.48,1.0865396000008332,2.611757317771243,3.6655920835213793,0,22,M,R,
,,5,Main,12,0.8052296999994724,down,1,270,down,1.0,control,0.8799999999999999,1.330030799999804,3.8537550556575786,3.1636500338001605,0,22,M,R,
,,5,Main,13,0.890508199998294,down,0,90,up,0.09081632653061224,control,0.1399999999999999,1.6644570000025851,4.703967939097843,2.7268174698469587,0,22,M,R,
,,5,Main,14,0.7928876000005403,down,1,270,down,0.15142857142857144,conf,0.8799999999999999,1.2244108999984746,3.99525398634797,2.048045456692871,0,22,M,R,
,,5,Main,15,0.6245148999987578,down,1,270,down,0.5757142857142857,conf,0.8799999999999999,1.0528281000006245,2.831955358473373,2.9708978521374547,0,22,M,R,
,,5,Main,16,0.7665673000010429,down,1,270,down,0.05040816326530612,conf,0.45999999999999996,1.6687980999995489,2.7713123049275787,2.066204492864699,0,22,M,R,
,,5,Main,17,0.7253721000015503,up,1,90,up,0.5555102040816327,control,0.48,1.854254400001082,3.933245013535657,2.9775453210664127,0,22,M,R,
,,5,Main,18,0.8918420000009064,up,1,90,up,0.9393877551020408,control,0.56,1.0068620000020019,4.580872644876358,3.2095638764328185,0,22,M,R,
,,5,Main,19,0.6611804999993183,down,1,270,down,0.9393877551020408,control,0.8600000000000001,1.1507877000003646,4.673798316794098,2.19575459323395,0,22,M,R,
,,5,Main,20,0.5860853999984101,down,1,270,down,0.9595918367346938,conf,0.8200000000000001,1.3236963999988802,2.390141636417744,2.1564360346706883,0,22,M,R,
,,5,Main,21,0.6784540000007837,down,1,270,down,0.49489795918367346,conf,0.8999999999999999,1.6909162999982073,3.4807068788992503,2.348719271345235,0,22,M,R,
,,5,Main,22,0.6035788999979559,down,1,270,down,0.45448979591836736,control,0.94,1.3626031999992847,2.0370519799737323,3.7227659376450823,0,22,M,R,
,,5,Main,23,0.9819008999984362,up,1,90,up,0.1716326530612245,conf,0.6200000000000001,1.7137894999978016,2.146003390514422,1.0798672396394458,0,22,M,R,
,,5,Main,24,0.6396311000025889,up,1,90,up,0.9191836734693878,conf,0.94,1.0181720000000496,4.8842465075349715,3.2663530419059787,0,22,M,R,
,,5,Main,25,0.7873623999985284,down,0,90,up,1.0,control,-0.94,2.399557400000049,3.0628401598176938,1.8005964243143517,0,22,M,R,
,,5,Main,26,0.9236831999987771,up,1,90,up,0.1716326530612245,conf,0.8999999999999999,2.5045013000017207,2.179505388071087,1.005961976742736,0,22,M,R,
,,5,Main,27,1.2631970000002184,up,1,90,up,0.13122448979591836,conf,0.28,1.059679199999664,4.648728291015116,2.6514744519952314,0,22,M,R,
,,5,Main,28,0.6137636000021303,down,0,90,up,0.8181632653061224,conf,-0.92,1.0176795000006678,2.8428409782093995,1.8697601790664948,0,22,M,R,
,,5,Main,29,1.4834822000011627,down,1,270,down,0.9393877551020408,control,0.9199999999999999,1.3983923000014329,3.9801325339113127,1.605010043982571,0,22,M,R,
,,5,Main,30,0.9796185000013793,down,0,90,up,0.1716326530612245,conf,-0.48,0.9376240999990841,2.583164887934845,2.78462351155581,0,22,M,R,
,,5,Main,31,1.2036255999992136,up,0,270,down,0.09081632653061224,conf,0.1200000000000001,1.2846865000028629,3.9948315170179707,3.3043047263093377,0,22,M,R,
,,5,Main,32,0.7831268000009004,up,0,270,down,0.1716326530612245,conf,0.17999999999999994,1.5756909999981872,3.00379733967552,1.682792778286804,0,22,M,R,
,,5,Main,33,0.838330099999439,up,1,90,up,0.1716326530612245,conf,0.21999999999999997,1.0259886000021652,4.607795228138938,2.6987245158753566,0,22,M,R,
,,5,Main,34,0.7527197000017622,down,1,270,down,0.4140816326530612,conf,0.3400000000000001,1.0974830000013753,2.5174069038645444,1.7925246864945164,0,22,M,R,
,,5,Main,35,0.6770632000007026,down,1,270,down,0.45448979591836736,conf,0.30000000000000004,1.461144200002309,3.6931975838531974,3.2829589839027373,0,22,M,R,
,,5,Main,36,1.1058463000008487,up,0,270,down,0.030204081632653063,conf,0.0,0.32035959999848274,4.9808762957571036,3.400736226313265,0,22,M,R,
,,5,Main,37,0.9359227999993891,up,1,90,up,0.4342857142857143,control,0.8600000000000001,1.9590559999996913,2.923463834917346,2.8766860048687133,0,22,M,R,
,,5,Main,38,0.6936055000005581,up,1,90,up,0.1716326530612245,conf,0.6399999999999999,1.3564120999981242,1.6808896162274174,2.299327614233842,0,22,M,R,
,,5,Main,39,0.605700699998124,up,1,90,up,0.15142857142857144,conf,0.76,1.014827699997113,2.3846092969113895,2.6173370476160365,0,22,M,R,
,,5,Main,40,0.917556100001093,down,1,270,down,0.8585714285714285,conf,0.8799999999999999,1.0067388999996183,3.589157139154581,1.907400140585227,0,22,M,R,
,,5,Main,41,0.5944611000013538,down,1,270,down,0.8989795918367347,control,0.8799999999999999,1.0044067999988329,4.001853263490174,2.2731452082469774,0,22,M,R,
,,5,Main,42,0.661834299997281,up,1,90,up,0.9191836734693878,conf,0.9199999999999999,1.1875978999996732,2.35038002951711,3.2447685075098454,0,22,M,R,
,,5,Main,43,1.042181700002402,down,1,270,down,0.01,conf,-0.07999999999999996,2.484053899999708,3.0534176070899095,1.702563677127737,0,22,M,R,
,,5,Main,44,1.2012891000013042,down,1,270,down,0.11102040816326529,conf,-0.12,1.1343764000012015,2.579187566140763,3.0115540834262675,0,22,M,R,
,,5,Main,45,0.7422000999977172,up,1,90,up,0.19183673469387755,conf,0.43999999999999995,1.6702932000007422,3.6158898553127568,1.8819171975621645,0,22,M,R,
,,6,Main,0,0.5775075999990804,up,1,90,up,1.0,conf,0.8999999999999999,1.175644300001295,2.863144440451811,1.541805279627635,0,22,M,R,
,,6,Main,1,0.5421390000010433,up,1,90,up,0.7777551020408163,conf,0.9199999999999999,0.8877033999997366,1.8806880659235032,2.026498376102267,0,22,M,R,
,,6,Main,2,0.5883243999996921,down,1,270,down,0.7171428571428571,conf,0.8600000000000001,0.7284068000008119,4.123614422908787,2.979134986841766,0,22,M,R,
,,6,Main,3,0.6247022999996261,up,1,90,up,0.8585714285714285,conf,0.96,0.8024221000014222,1.6486570022520972,1.453526590694039,0,22,M,R,
,,6,Main,4,0.7149857000003976,down,1,270,down,0.13122448979591836,conf,0.3799999999999999,1.174826899998152,3.71842407842359,1.8325110835852134,0,22,M,R,
,,6,Main,5,0.5715009000014106,down,0,90,up,0.11102040816326529,control,-0.28,1.2402857000015501,3.1112973733862175,2.2716794830889953,0,22,M,R,
,,6,Main,6,0.8144407999971008,up,1,90,up,0.9191836734693878,control,0.8400000000000001,0.9180090000008931,3.474347797525187,2.0003285791818906,0,22,M,R,
,,6,Main,7,0.6362115999982052,down,1,270,down,0.8989795918367347,conf,0.9199999999999999,1.0793821000006574,1.9833359827274815,1.4790659212008002,0,22,M,R,
,,6,Main,8,0.555824200000643,down,1,270,down,0.8585714285714285,conf,0.96,0.8458726999997452,4.805536974253902,1.9980061042837642,0,22,M,R,
,,6,Main,9,0.6047688999969978,down,1,270,down,0.4140816326530612,control,-0.86,1.3464991999971971,4.754348676967387,1.6221830778820254,0,22,M,R,
,,6,Main,10,0.6787050999992061,down,1,270,down,0.8181632653061224,conf,0.94,1.4809577000014542,4.579399826095444,3.522721595252351,0,22,M,R,
,,6,Main,11,0.9300627000011445,down,0,90,up,0.01,conf,-0.16000000000000003,0.8960550000010699,2.026279321018491,2.4463783817894065,0,22,M,R,
,,6,Main,12,0.6411034000011568,down,1,270,down,0.9191836734693878,control,0.9199999999999999,1.5918715000007069,1.958378475786632,1.6374176959824887,0,22,M,R,
,,6,Main,13,0.7976101000022027,down,0,90,up,0.01,conf,0.0,0.4010420000013255,3.0239308271354255,2.1098568659932653,0,22,M,R,
,,6,Main,14,0.6426817000028677,up,1,90,up,0.4746938775510204,conf,0.94,0.8796484000013152,3.408829352291668,3.1039857281611574,0,22,M,R,
,,6,Main,15,0.7846833000003244,up,0,270,down,0.1716326530612245,conf,0.1200000000000001,0.9366394000026048,4.663391022547195,1.8934914462873513,0,22,M,R,
,,6,Main,16,0.6036344999993162,up,1,90,up,0.35346938775510206,control,0.3799999999999999,1.3426200999965658,1.586214642838396,1.7727619801997885,0,22,M,R,
,,6,Main,17,0.613502399999561,down,1,270,down,0.4342857142857143,conf,0.54,0.7106872999975167,4.7972579406392555,2.477468174330333,0,22,M,R,
,,6,Main,18,0.8267669000015303,down,1,270,down,0.01,conf,0.0,0.4020660999995016,4.468531204055603,2.0594867168682294,0,22,M,R,
,,6,Main,19,0.6589189999976952,down,1,270,down,0.4140816326530612,conf,0.43999999999999995,0.7945434000030218,2.14077650160099,2.280785675343736,0,22,M,R,
,,6,Main,20,0.658028199999535,down,1,270,down,0.4342857142857143,conf,0.6399999999999999,1.4126484000007622,1.7039226620437755,3.1801834730469474,0,22,M,R,
,,6,Main,21,0.6415221999995993,down,0,90,up,0.07061224489795918,control,-0.16000000000000003,1.3993993999974919,1.9717465225806936,2.7132029108713493,0,22,M,R,
,,6,Main,22,0.8399494999976014,down,0,90,up,0.13122448979591836,conf,0.08000000000000007,2.152002700000594,4.967258161505521,3.638153978114352,0,22,M,R,
,,6,Main,23,0.59800499999983,down,1,270,down,0.39387755102040817,conf,0.9199999999999999,0.8395500000005995,3.351944840255615,2.6788237281447915,0,22,M,R,
,,6,Main,24,0.6245238000010431,down,1,270,down,0.39387755102040817,conf,0.8999999999999999,0.9485970000023372,3.967880389984988,2.5446988214720916,0,22,M,R,
,,6,Main,25,0.7152624999980617,down,1,270,down,0.2726530612244898,control,0.3600000000000001,1.8779947999973956,4.335290667170749,1.9344297714683716,0,22,M,R,
,,6,Main,26,0.6808673000014096,up,1,90,up,0.8787755102040816,conf,0.8600000000000001,0.8367154000006849,2.322476191066377,3.1980601045362116,0,22,M,R,
,,6,Main,27,0.7397423000002163,up,1,90,up,0.29285714285714287,control,0.78,1.1225242000000435,4.713413726416155,3.243472920162124,0,22,M,R,
,,6,Main,28,0.5950014000009105,up,1,90,up,0.9797959183673469,conf,0.9199999999999999,1.4049798999985796,1.7861110697558291,2.2652990499510586,0,22,M,R,
,,6,Main,29,0.5878307999992103,up,1,90,up,0.15142857142857144,conf,0.8400000000000001,1.3395476000005146,1.9265725368655076,3.993256657550708,0,22,M,R,
,,6,Main,30,0.577660899998591,down,0,90,up,0.19183673469387755,conf,-0.6,0.899164300000848,2.0566183820260324,2.065335583880896,0,22,M,R,
,,6,Main,31,1.1384495000020252,down,1,270,down,0.4342857142857143,control,0.28,1.5980627999997523,1.867263504252343,3.45749020877816,0,22,M,R,
,,6,Main,32,0.6621319000005315,down,1,270,down,0.29285714285714287,conf,0.72,1.1077431999983673,4.183245623464689,2.2899483579757556,0,22,M,R,
,,6,Main,33,0.6267043000007106,up,1,90,up,0.4342857142857143,conf,0.94,0.9592248999979347,2.660159632550635,2.0458007214025917,0,22,M,R,
,,6,Main,34,0.6550614999978279,up,0,270,down,0.05040816326530612,conf,0.6000000000000001,1.1256929000010132,1.9391188302946136,2.820847268879574,0,22,M,R,
,,6,Main,35,0.7989966999994067,down,1,270,down,0.11102040816326529,conf,0.0,0.7409120999982406,4.735925486640628,3.2623560868599446,0,22,M,R,
,,6,Main,36,0.6234486000030302,up,1,90,up,0.35346938775510206,conf,0.6399999999999999,1.2778021000012814,2.590730699327951,2.9905921366584884,0,22,M,R,
,,6,Main,37,0.7624986000009812,up,0,270,down,0.39387755102040817,conf,0.6399999999999999,1.0390478000008443,3.0338093942320583,3.074044132354844,0,22,M,R,
,,6,Main,38,0.6626501999999164,up,1,90,up,0.2120408163265306,conf,0.8600000000000001,1.0210899999983667,3.668122353971959,2.4768769469308674,0,22,M,R,
,,6,Main,39,0.5957469999993918,up,0,270,down,0.8383673469387755,conf,-0.98,1.1042369999995572,4.086961159520442,2.0556370297418174,0,22,M,R,
,,6,Main,40,0.8158825999998953,down,0,90,up,0.4140816326530612,conf,-0.84,0.9859359000001859,2.3567908290340203,2.6110975172061295,0,22,M,R,
,,6,Main,41,0.9602734000000055,up,1,90,up,0.19183673469387755,conf,0.8200000000000001,1.1382059999996272,3.9018307295678074,1.922902900429523,0,22,M,R,
,,6,Main,42,0.8133020999994187,up,0,270,down,0.09081632653061224,conf,None,None,4.5560437820360935,3.6355431477641824,0,22,M,R,
,,6,Main,43,0.7447596000019985,up,1,90,up,0.2120408163265306,conf,0.3999999999999999,0.777527199999895,2.6125697700116493,3.047131509470192,0,22,M,R,
,,6,Main,44,0.8235165000005509,up,1,90,up,0.13122448979591836,control,0.3400000000000001,1.6190820000010717,2.7314554342005417,3.1521529740033065,0,22,M,R,
,,6,Main,45,0.9022514000025694,up,0,270,down,0.333265306122449,conf,0.48,1.1272459000028903,4.519613936696752,2.209861226719247,0,22,M,R,
,,7,Main,0,0.6204123000024993,up,1,90,up,0.39387755102040817,conf,0.41999999999999993,0.7326811000020825,3.2308844187159083,2.824926196246846,0,22,M,R,
,,7,Main,1,0.6294981999999436,up,1,90,up,0.15142857142857144,conf,0.8,1.095090099999652,4.947268813350599,3.5286596581977223,0,22,M,R,
,,7,Main,2,0.6605371999976342,down,1,270,down,0.4342857142857143,conf,0.8799999999999999,1.7942225000006147,2.5456527765389945,1.0235564126988348,0,22,M,R,
,,7,Main,3,0.5734943999996176,down,1,270,down,0.35346938775510206,conf,0.32000000000000006,1.094912900000054,3.0402234867076645,1.2733063099190298,0,22,M,R,
,,7,Main,4,0.8809417000011308,down,1,270,down,0.3130612244897959,control,0.17999999999999994,2.6444791999965673,4.533800672153365,1.3860187404176805,0,22,M,R,
,,7,Main,5,0.8500100999990536,down,1,270,down,0.29285714285714287,conf,0.0,0.5943976999988081,2.5814560440711323,1.5682903659053418,0,22,M,R,
,,7,Main,6,0.6180601999985811,down,1,270,down,0.9191836734693878,conf,0.8999999999999999,0.9819138999991992,4.849887896399611,3.535587726808356,0,22,M,R,
,,7,Main,7,0.651812100000825,up,1,90,up,0.2726530612244898,conf,0.9199999999999999,1.3491395999990345,4.663607523181923,2.2981642095025103,0,22,M,R,
,,7,Main,8,0.5863802999992913,up,1,90,up,0.333265306122449,conf,0.8200000000000001,1.096289400000387,2.336178714668301,2.428716930375271,0,22,M,R,
,,7,Main,9,0.5579149000004691,up,1,90,up,0.6969387755102041,control,0.96,1.8693402999997488,1.5347894368824229,2.7775407734904154,0,22,M,R,
,,7,Main,10,0.6420809000010195,up,1,90,up,0.9797959183673469,conf,0.94,0.8941749000005075,3.6737941623338313,3.468947356882903,0,22,M,R,
,,7,Main,11,0.7200991999998223,down,1,270,down,0.7373469387755102,conf,0.8799999999999999,1.1984840000004624,4.717925475316264,1.7769944438113896,0,22,M,R,
,,7,Main,12,0.6089650000030815,down,1,270,down,0.29285714285714287,conf,0.3999999999999999,1.0460437999972783,1.9382991205305584,3.7575262648537437,0,22,M,R,
,,7,Main,13,1.0651307999978599,down,1,270,down,0.1716326530612245,conf,0.1399999999999999,0.756971999999223,4.621331391887592,2.709152470064826,0,22,M,R,
,,7,Main,14,0.7108050999995612,up,1,90,up,0.030204081632653063,conf,0.3999999999999999,2.4367316999996547,3.5682073050718595,1.7881085749815915,0,22,M,R,
,,7,Main,15,0.6493914000020595,up,1,90,up,0.8383673469387755,conf,None,None,4.63732597576742,1.578199820263836,0,22,M,R,
,,7,Main,16,0.7989773000008427,up,1,90,up,0.07061224489795918,conf,0.1200000000000001,0.7855135999998311,2.0211749640179977,3.651246072235021,0,22,M,R,
,,7,Main,17,0.6024336999980733,down,1,270,down,0.7171428571428571,control,0.9199999999999999,2.1424255999991146,3.8574258251248796,1.4975855260974564,0,22,M,R,
,,7,Main,18,0.7547315000010713,down,1,270,down,0.7373469387755102,control,0.98,1.1255498999998963,4.391758511198459,1.6382595384864098,0,22,M,R,
,,7,Main,19,0.6804222999999183,down,1,270,down,0.2726530612244898,conf,0.6200000000000001,0.8287068999998155,1.7136558375640454,3.2505721261083993,0,22,M,R,
,,7,Main,20,0.6545441999987816,up,1,90,up,0.8585714285714285,conf,0.8799999999999999,0.8840399000000616,3.132472406580258,1.844235271296991,0,22,M,R,
,,7,Main,21,0.8088447999980417,down,1,270,down,0.2524489795918367,conf,0.8400000000000001,1.4135285000011208,1.9387885507903393,2.030851535766494,0,22,M,R,
,,7,Main,22,0.6543463000016345,down,1,270,down,0.7171428571428571,conf,0.94,1.1884186999996018,3.6287168922660276,2.472526004872446,0,22,M,R,
,,7,Main,23,0.6333440999987943,up,1,90,up,0.8383673469387755,conf,0.94,0.9549989000006462,4.708923128641853,3.03664558318086,0,22,M,R,
,,7,Main,24,0.7329465000002529,up,1,90,up,0.6969387755102041,conf,0.9199999999999999,1.2396972999995342,4.473193254185245,2.0515136699665466,0,22,M,R,
,,7,Main,25,0.7174575999997614,down,1,270,down,0.8787755102040816,control,0.9199999999999999,1.1437098999995214,4.854856320169884,1.8422798158514628,0,22,M,R,
,,7,Main,26,0.6604431999985536,down,1,270,down,0.3736734693877551,conf,0.8999999999999999,0.9318067000021983,1.6383641286500374,2.1804013876831005,0,22,M,R,
,,7,Main,27,0.6074794999985897,down,0,90,up,0.030204081632653063,control,0.0,0.41712579999875743,2.35290811105246,2.4610343526090657,0,22,M,R,
,,7,Main,28,0.6254584000016621,up,1,90,up,0.9797959183673469,conf,0.96,0.9924619000012171,2.743109795105455,2.5875342068137144,0,22,M,R,
,,7,Main,29,0.5818289000017103,up,1,90,up,0.8181632653061224,control,0.9199999999999999,1.2088981000015337,4.233184879107735,3.115138647220053,0,22,M,R,
,,7,Main,30,0.6872856999980286,up,1,90,up,0.333265306122449,conf,0.26,2.6632054000001517,2.550687074031692,2.6180094014473174,0,22,M,R,
,,7,Main,31,0.837212800000998,up,1,90,up,0.23224489795918368,conf,0.43999999999999995,1.2390599999998813,1.5080945651832276,2.5684811642215477,0,22,M,R,
,,7,Main,32,0.719743000001472,down,1,270,down,0.8181632653061224,conf,0.8,0.9367846000022837,3.910802447602328,3.8784821897989588,0,22,M,R,
,,7,Main,33,0.6590966999974626,up,1,90,up,0.3130612244897959,conf,0.96,1.1243192000001727,4.729934354952606,3.284359932451392,0,22,M,R,
,,7,Main,34,0.5517728000013449,up,1,90,up,0.7777551020408163,control,0.9199999999999999,1.671869699999661,2.7071227789319408,3.554239919509437,0,22,M,R,
,,7,Main,35,0.6343145000028017,up,0,270,down,0.29285714285714287,control,0.0,2.1576018999985536,2.0387961195178734,2.232286698948822,0,22,M,R,
,,7,Main,36,0.7024686000004294,up,1,90,up,0.3130612244897959,conf,0.8999999999999999,0.7605595999993966,2.467441326726555,3.9858545449415272,0,22,M,R,
,,7,Main,37,0.7003829999994196,up,0,270,down,0.07061224489795918,conf,0.26,1.1546447000000626,2.8916305367445077,3.0366921545777084,0,22,M,R,
,,7,Main,38,0.6626993999998376,up,1,90,up,0.2726530612244898,conf,0.48,1.9902875000007043,2.785215613291287,2.1112896014639295,0,22,M,R,
,,7,Main,39,0.6422601000012946,up,1,90,up,1.0,control,0.9199999999999999,1.3680442000004405,4.738552430191371,2.4149960855714814,0,22,M,R,
,,7,Main,40,0.6889400000000023,down,1,270,down,0.2524489795918367,conf,0.21999999999999997,1.9129056999991008,3.904426591237443,1.9306193696623652,0,22,M,R,
,,7,Main,41,0.5892241000001377,down,1,270,down,0.7575510204081632,conf,0.8600000000000001,0.7637585999982548,2.4705420809023546,1.363126041999823,0,22,M,R,
,,7,Main,42,0.6230938000007882,up,1,90,up,0.9393877551020408,conf,0.8999999999999999,1.082985600001848,3.1005472822571827,2.715289774255319,0,22,M,R,
,,7,Main,43,0.7056702000008954,down,1,270,down,0.7575510204081632,conf,0.8600000000000001,0.7331496000006155,3.9009858965686597,2.0727035829819074,0,22,M,R,
,,7,Main,44,0.7116790999971272,down,1,270,down,0.3130612244897959,conf,0.9199999999999999,0.9676973999994516,4.288818279654427,2.4238318176840394,0,22,M,R,
,,7,Main,45,0.8147643999982392,down,1,270,down,0.7575510204081632,conf,0.8799999999999999,1.0644552000012482,1.9293401771112346,2.6501582746732066,0,22,M,R,
,,8,Main,0,0.7187919999996666,up,0,270,down,0.11102040816326529,conf,0.020000000000000018,1.0463633999970625,3.2343939294185295,1.9066592347972227,0,22,M,R,
,,8,Main,1,0.8106216000014683,up,0,270,down,0.01,conf,0.17999999999999994,0.5737802000003285,2.14457603216408,1.7433533923377662,0,22,M,R,
,,8,Main,2,0.6120549000006577,down,1,270,down,0.7979591836734694,conf,1.0,0.747820500000671,4.911457880411843,3.0995436446328686,0,22,M,R,
,,8,Main,3,0.5542956000026606,up,1,90,up,0.8585714285714285,control,0.96,1.8169200999982422,4.267296815054372,2.427326194858412,0,22,M,R,
,,8,Main,4,0.7770211999995809,up,1,90,up,0.9797959183673469,conf,0.96,0.8472676000019419,4.609768966188435,3.2960252569756108,0,22,M,R,
,,8,Main,5,0.7915409999986878,down,1,270,down,0.8787755102040816,conf,0.8799999999999999,0.730404499998258,3.1061553617573527,2.4302645838635857,0,22,M,R,
,,8,Main,6,0.5739716999996745,down,1,270,down,1.0,control,0.8400000000000001,1.5234305999983917,4.112065662402896,3.283965420465361,0,22,M,R,
,,8,Main,7,0.9852715000015451,down,1,270,down,0.4140816326530612,control,0.3400000000000001,1.0724230000014359,2.5410281979979197,1.7618556161033576,0,22,M,R,
,,8,Main,8,0.8224807000005967,up,1,90,up,0.29285714285714287,control,0.52,0.8683716000014101,2.8975819060353327,1.6588383091262857,0,22,M,R,
,,8,Main,9,0.6430555000006279,down,1,270,down,0.3736734693877551,conf,0.7,0.940747000000556,3.663744916954703,1.8106227724506025,0,22,M,R,
,,8,Main,10,0.6742870999987645,down,1,270,down,0.333265306122449,control,0.6200000000000001,2.1575174999998126,4.27879336164613,1.156376213980496,0,22,M,R,
,,8,Main,11,0.774285499999678,up,1,90,up,0.29285714285714287,conf,0.78,1.33848990000115,4.080552671064213,1.506573559724469,0,22,M,R,
,,8,Main,12,0.731304299999465,down,1,270,down,0.9797959183673469,conf,0.8799999999999999,1.0506850999991002,3.1742054609992914,3.2318308581853232,0,22,M,R,
,,8,Main,13,0.762840999999753,up,1,90,up,0.35346938775510206,conf,0.74,1.1977068999985931,3.7112974575737803,3.322362884901591,0,22,M,R,
,,8,Main,14,0.6964422999990347,up,1,90,up,0.8181632653061224,conf,0.98,1.2028457000014896,4.769832339554014,1.550418705032334,0,22,M,R,
,,8,Main,15,0.6387298999979976,up,1,90,up,1.0,conf,0.96,1.6228441999992356,1.8450140342414083,2.1330549449218967,0,22,M,R,
,,8,Main,16,0.6847761999997601,up,1,90,up,0.23224489795918368,control,0.8799999999999999,1.4360191999985545,2.0437564650122546,2.259696697550581,0,22,M,R,
,,8,Main,17,0.5881804999989981,up,1,90,up,0.1716326530612245,conf,0.24,0.802046299999347,1.7478107533817981,3.2262602770358013,0,22,M,R,
,,8,Main,18,0.7435543000028701,down,1,270,down,0.8989795918367347,control,0.9199999999999999,1.0246435000008205,2.396858934455482,3.0346980258646594,0,22,M,R,
,,8,Main,19,0.5953927000009571,down,1,270,down,0.6969387755102041,conf,0.76,1.1378554000002623,4.069905897184901,2.311299749301546,0,22,M,R,
,,8,Main,20,1.3415666000000783,down,1,270,down,0.09081632653061224,conf,0.0,0.54465540000092,3.4917972532817805,2.5307004835380456,0,22,M,R,
,,8,Main,21,0.6892813999984355,up,1,90,up,0.6969387755102041,conf,0.78,1.4053667999978643,2.5939214230557335,2.431771736425498,0,22,M,R,
,,8,Main,22,0.8559771000000183,down,0,90,up,0.01,conf,-0.18000000000000005,0.7034260000000359,2.7978138900107137,3.40588366477808,0,22,M,R,
,,8,Main,23,0.9138473999992129,up,1,90,up,0.19183673469387755,conf,0.30000000000000004,0.9324126999999862,3.008846690333434,2.057918510205155,0,22,M,R,
,,8,Main,24,0.5965512000002491,down,1,270,down,0.29285714285714287,conf,-0.4,0.9651425000010931,3.1259620250745335,2.4445019157356054,0,22,M,R,
,,8,Main,25,0.9912105000003066,up,0,270,down,0.15142857142857144,conf,0.56,1.9267718999981298,3.259586808641295,3.2392597793510194,0,22,M,R,
,,8,Main,26,0.5797012000002724,up,1,90,up,0.5555102040816327,conf,0.76,0.7622458000005281,2.0911932046610344,1.4956181621035105,0,22,M,R,
,,8,Main,27,0.6433312999979535,up,1,90,up,0.7373469387755102,conf,0.8400000000000001,1.1834333999977389,3.487992654785554,3.5860504961501554,0,22,M,R,
,,8,Main,28,0.9680170000028738,up,0,270,down,0.333265306122449,conf,-0.31999999999999995,1.3509131999999227,1.9951409507835374,3.5642965569891985,0,22,M,R,
,,8,Main,29,0.6074269999990065,up,1,90,up,0.7979591836734694,control,0.43999999999999995,1.2131021000022884,1.636409618679279,2.9903735095186432,0,22,M,R,
,,8,Main,30,0.8449860000000626,up,1,90,up,0.656530612244898,conf,0.8,1.0045705000011367,4.500475045557639,1.8942322296444927,0,22,M,R,
,,8,Main,31,0.7923154999989492,up,1,90,up,0.656530612244898,conf,0.8200000000000001,1.392340200000035,4.7295711491893835,3.0931488050855265,0,22,M,R,
,,8,Main,32,0.6600457000022288,up,1,90,up,0.9393877551020408,conf,0.9199999999999999,1.2524535999982618,2.368301533354692,1.145098899125318,0,22,M,R,
,,8,Main,33,0.8891002000018489,down,1,270,down,0.6161224489795918,conf,0.8799999999999999,1.1148291999998037,3.1859848339877455,1.9314833147676098,0,22,M,R,
,,8,Main,34,0.6861503000000084,up,1,90,up,0.676734693877551,conf,0.96,1.19067449999784,3.8735583858249987,3.659372848409116,0,22,M,R,
,,8,Main,35,0.6130378000016208,up,1,90,up,0.6161224489795918,conf,0.78,1.0384548000001814,2.5836197995750583,3.728610020884063,0,22,M,R,
,,8,Main,36,0.543636599999445,down,1,270,down,1.0,control,0.30000000000000004,1.63054750000083,2.7255432203961414,1.8756774447126028,0,22,M,R,
,,8,Main,37,0.7087995999972918,down,1,270,down,0.656530612244898,conf,0.8999999999999999,1.3283188999994309,3.3065960207233465,1.4307103533089263,0,22,M,R,
,,8,Main,38,0.6893240000026708,down,1,270,down,0.9797959183673469,conf,0.8999999999999999,1.407485199997609,1.8752433001791935,1.7049069988360241,0,22,M,R,
,,8,Main,39,0.6154797999988659,down,1,270,down,0.8383673469387755,conf,0.94,1.2310709999983374,4.297021974339603,1.496596276618613,0,22,M,R,
,,8,Main,40,0.8213696999991953,down,1,270,down,0.030204081632653063,conf,0.8400000000000001,1.1649471999990055,2.0635617542987656,1.90609428674195,0,22,M,R,
,,8,Main,41,0.699513499999739,down,1,270,down,0.9191836734693878,control,0.94,1.2063522000025841,4.939074248999438,2.538058584735123,0,22,M,R,
,,8,Main,42,0.6669000000001688,up,1,90,up,0.6161224489795918,conf,0.8999999999999999,0.7838323000032688,3.1924606420971053,1.7830315518663342,0,22,M,R,
,,8,Main,43,0.7202075000022887,up,1,90,up,0.8585714285714285,conf,0.3600000000000001,2.401770399999805,2.1280234515823526,2.590980329898146,0,22,M,R,
,,8,Main,44,0.9626572000015585,up,0,270,down,0.07061224489795918,conf,0.17999999999999994,0.8663840999979584,3.7578138279153093,2.860354669953498,0,22,M,R,
,,8,Main,45,0.6265798999993422,up,1,90,up,0.7171428571428571,conf,0.8999999999999999,1.069036299999425,4.137558250210462,3.695134174413849,0,22,M,R,
,,9,Main,0,0.7134335999980976,up,1,90,up,0.19183673469387755,conf,0.15999999999999992,0.741085400000884,4.951492365796959,3.036284360753849,0,22,M,R,
,,9,Main,1,0.668750100001489,down,1,270,down,0.6161224489795918,conf,0.8200000000000001,1.0759677999994892,3.3689273167192626,1.4341395125751895,0,22,M,R,
,,9,Main,2,0.7367216000020562,up,1,90,up,0.35346938775510206,conf,0.28,1.0377422000019578,2.1414643002596563,3.2342473104788363,0,22,M,R,
,,9,Main,3,0.919965900000534,up,1,90,up,0.09081632653061224,conf,0.19999999999999996,0.949611999996705,2.5153687253682797,2.277957752363442,0,22,M,R,
,,9,Main,4,0.8559477000017068,up,1,90,up,0.35346938775510206,conf,0.0,0.5566964000026928,4.010196062239228,1.7516002645375157,0,22,M,R,
,,9,Main,5,0.6180108000007749,up,1,90,up,0.8181632653061224,conf,0.96,0.9991306999982044,2.597134374486001,3.147240684859577,0,22,M,R,
,,9,Main,6,0.6914828999979363,down,1,270,down,0.5959183673469388,control,0.78,1.9576703999991878,3.513845253012468,2.4798554426441775,0,22,M,R,
,,9,Main,7,0.8754989999979443,down,1,270,down,0.23224489795918368,conf,0.8,1.0654461000012816,4.439272055192506,3.021120078330522,0,22,M,R,
,,9,Main,8,0.6487877999970806,down,1,270,down,0.6161224489795918,conf,0.8799999999999999,0.9054275999988022,4.8239375544334395,1.5155249117120446,0,22,M,R,
,,9,Main,9,0.9061239999973623,down,0,90,up,0.15142857142857144,conf,0.7,0.8772057000023779,3.189680570039634,3.5716043966322264,0,22,M,R,
,,9,Main,10,0.7503682000024128,up,1,90,up,0.19183673469387755,conf,0.1399999999999999,1.678942200000165,4.499655258923689,2.3304946248273826,0,22,M,R,
,,9,Main,11,0.9065588999983447,up,0,270,down,0.01,conf,0.0,0.6007895999973698,4.015756642967853,1.5101074678347648,0,22,M,R,
,,9,Main,12,1.4099480000004405,up,0,270,down,0.01,conf,0.6200000000000001,2.169735199997376,3.7679784401804057,1.4296638266754542,0,22,M,R,
,,9,Main,13,0.872876699999324,up,0,270,down,0.07061224489795918,control,0.0,0.3829384000018763,4.41856171403251,1.7685311199315796,0,22,M,R,
,,9,Main,14,0.6506891999997606,down,1,270,down,0.39387755102040817,conf,0.15999999999999992,0.7235049999981129,4.458184941345231,2.1368172300966943,0,22,M,R,
,,9,Main,15,0.6493436999990081,up,1,90,up,0.7777551020408163,control,0.74,1.2759163000009721,2.468490127536541,2.494733272778821,0,22,M,R,
,,9,Main,16,0.604639799999859,up,1,90,up,0.7171428571428571,conf,1.0,1.2843156999988423,3.6672511601483744,2.726273320085841,0,22,M,R,
,,9,Main,17,0.7771801999988384,up,1,90,up,0.07061224489795918,control,0.96,2.396856999999727,2.508502739576975,3.213607594817766,0,22,M,R,
,,9,Main,18,0.9403463000016927,down,1,270,down,0.07061224489795918,conf,0.6799999999999999,1.6839737000009336,3.4840408879543494,2.954561422767969,0,22,M,R,
,,9,Main,19,0.5933283000013034,down,1,270,down,0.656530612244898,conf,0.74,0.9558993999999075,2.5314388901125584,1.3414202873601522,0,22,M,R,
,,9,Main,20,0.6279839000017091,down,1,270,down,0.4746938775510204,control,0.8799999999999999,1.0172713000029034,2.137411538932373,2.4747143854238254,0,22,M,R,
,,9,Main,21,0.6963592000029166,up,1,90,up,0.9393877551020408,conf,0.96,1.1075891999971645,4.3848409193256295,2.3675442765966994,0,22,M,R,
,,9,Main,22,0.9873200000001816,down,1,270,down,0.333265306122449,conf,0.5,0.9082837000023574,2.188494470634756,1.323421952650364,0,22,M,R,
,,9,Main,23,0.6126594000015757,down,0,90,up,0.5353061224489796,conf,-0.88,1.024531199997,1.9167142761253524,2.883710262312361,0,22,M,R,
,,9,Main,24,0.6345600000022387,down,1,270,down,0.4746938775510204,conf,0.8799999999999999,0.7720767999999225,1.7862994286323326,2.5085664457784778,0,22,M,R,
,,9,Main,25,1.0814450999969267,up,0,270,down,0.15142857142857144,control,-0.43999999999999995,1.8603665999980876,2.112410358766181,3.5490908493532523,0,22,M,R,
,,9,Main,26,0.6735134999980801,up,1,90,up,0.8989795918367347,control,0.9199999999999999,0.8756815000015195,2.5921350402905343,2.719012483217229,0,22,M,R,
,,9,Main,27,0.6274266000000353,up,1,90,up,1.0,conf,0.96,0.7954793999997491,4.060630002200685,3.556221369425778,0,22,M,R,
,,9,Main,28,0.8785647000004246,up,0,270,down,0.01,conf,0.0,0.43874199999845587,3.532532906777787,2.3246759937758124,0,22,M,R,
,,9,Main,29,0.8285393999976804,down,1,270,down,0.656530612244898,conf,0.8600000000000001,2.159126299997297,2.0132879425686605,1.8178005498309506,0,22,M,R,
,,9,Main,30,0.7178201999995508,up,1,90,up,0.6161224489795918,conf,0.76,0.7271474999979546,1.6840399693285306,2.7350417599624874,0,22,M,R,
,,9,Main,31,0.788092399998277,down,1,270,down,0.05040816326530612,conf,0.21999999999999997,1.2254039000035846,3.523776180643539,1.900475158420837,0,22,M,R,
,,9,Main,32,0.8880073000000266,up,1,90,up,0.23224489795918368,conf,0.3400000000000001,1.2378203999978723,4.146517746497196,2.981511592879833,0,22,M,R,
,,9,Main,33,0.6235144999991462,up,1,90,up,0.5959183673469388,conf,0.6399999999999999,1.2799578000012843,3.587155730858258,2.9328204084451452,0,22,M,R,
,,9,Main,34,0.6380989999997837,down,1,270,down,0.5353061224489796,conf,0.6200000000000001,1.06619370000044,4.149349215263541,1.3041359425335242,0,22,M,R,
,,9,Main,35,0.7469288000029337,up,1,90,up,0.333265306122449,conf,0.7,1.3016145000001416,1.8380222806549469,1.656545508848253,0,22,M,R,
,,9,Main,36,0.5954063999997743,up,1,90,up,0.6363265306122449,conf,0.72,1.993063699999766,3.2993289083366175,2.5149639571939715,0,22,M,R,
,,9,Main,37,0.7216976000017894,down,1,270,down,0.5151020408163265,control,0.43999999999999995,1.6356097999996564,4.3649324862735295,2.6335571416736685,0,22,M,R,
,,9,Main,38,0.6041245000014897,up,1,90,up,0.6161224489795918,conf,0.8999999999999999,1.0569611999999324,3.8082518882353864,3.522763834146283,0,22,M,R,
,,9,Main,39,0.8315532000015082,down,0,90,up,0.030204081632653063,control,-0.42000000000000004,2.0007549000001745,1.724094547733297,1.0972423206853241,0,22,M,R,
,,9,Main,40,1.238321699998778,down,1,270,down,0.5151020408163265,conf,0.72,1.0333122999982152,4.817725607585398,2.349234644210777,0,22,M,R,
,,9,Main,41,0.671580800000811,up,1,90,up,0.39387755102040817,conf,0.48,1.5139297999994596,2.1333238806593644,1.0781615192100658,0,22,M,R,
,,9,Main,42,1.2396911999967415,down,0,90,up,0.01,conf,0.0,0.5850420999995549,1.5291456375433747,2.6770184571245146,0,22,M,R,
,,9,Main,43,0.7441973000022699,down,1,270,down,0.19183673469387755,conf,0.21999999999999997,2.2215443999994022,1.5829048730762305,3.369213183556185,0,22,M,R,
,,9,Main,44,0.6850424999975075,down,1,270,down,0.6161224489795918,conf,0.0,0.9839831999997841,4.063055865971993,1.8091634736138076,0,22,M,R,
,,9,Main,45,0.6041121999987809,down,1,270,down,0.9393877551020408,control,0.96,2.0260352000004787,1.5718046732301572,2.7448854527704,0,22,M,R,
